Temperature (C)	Pressure (bar)	Density (l, kg/m3)	Volume (l, m3/kg)	Internal Energy (l, kJ/mol)	Enthalpy (l, kJ/mol)	Entropy (l, J/mol*K)	Cv (l, J/mol*K)	Cp (l, J/mol*K)	Sound Spd. (l, m/s)	Joule-Thomson (l, K/bar)	Viscosity (l, uPa*s)	Therm. Cond. (l, W/m*K)	Surf. Tension (l, N/m)	Density (v, kg/m3)	Volume (v, m3/kg)	Internal Energy (v, kJ/mol)	Enthalpy (v, kJ/mol)	Entropy (v, J/mol*K)	Cv (v, J/mol*K)	Cp (v, J/mol*K)	Sound Spd. (v, m/s)	Joule-Thomson (v, K/bar)	Viscosity (v, uPa*s)	Therm. Cond. (v, W/m*K)
1.0000	0.0065709	999.85	0.0010001	0.075233	0.075245	0.27492	75.938	75.963	1407.2	-0.024046	1731.2	0.55811	0.075508	0.0051965	192.44	42.809	45.087	164.46	25.567	33.965	409.72	57.422	8.9741	0.016824
2.0000	0.0070599	999.89	0.0010001	0.15117	0.15118	0.55140	75.897	75.907	1412.1	-0.023951	1673.7	0.56059	0.075367	0.0055630	179.76	42.834	45.120	163.99	25.582	33.983	410.44	55.623	9.0029	0.016889
3.0000	0.0075808	999.92	0.0010001	0.22705	0.22706	0.82668	75.853	75.855	1416.8	-0.023858	1619.2	0.56302	0.075226	0.0059521	168.01	42.859	45.153	163.51	25.598	34.001	411.16	53.884	9.0319	0.016953
4.0000	0.0081355	999.93	0.0010001	0.30288	0.30289	1.1008	75.807	75.807	1421.5	-0.023766	1567.4	0.56539	0.075084	0.0063647	157.12	42.884	45.186	163.05	25.613	34.020	411.88	52.204	9.0610	0.017018
5.0000	0.0087258	999.92	0.0010001	0.37866	0.37868	1.3737	75.760	75.763	1426.0	-0.023676	1518.3	0.56772	0.074942	0.0068022	147.01	42.908	45.219	162.58	25.628	34.038	412.60	50.582	9.0902	0.017083
6.0000	0.0093536	999.89	0.0010001	0.45441	0.45442	1.6456	75.711	75.721	1430.4	-0.023588	1471.6	0.57001	0.074799	0.0072657	137.63	42.933	45.252	162.13	25.644	34.057	413.32	49.015	9.1196	0.017149
7.0000	0.010021	999.86	0.0010001	0.53011	0.53013	1.9163	75.661	75.683	1434.8	-0.023502	1427.2	0.57225	0.074655	0.0077566	128.92	42.958	45.285	161.67	25.659	34.076	414.03	47.502	9.1491	0.017214
8.0000	0.010730	999.80	0.0010002	0.60577	0.60579	2.1859	75.609	75.647	1439.0	-0.023417	1384.8	0.57444	0.074511	0.0082762	120.83	42.983	45.318	161.22	25.675	34.095	414.74	46.042	9.1788	0.017280
9.0000	0.011483	999.74	0.0010003	0.68140	0.68142	2.4544	75.556	75.614	1443.1	-0.023333	1344.5	0.57660	0.074366	0.0088258	113.30	43.007	45.351	160.77	25.690	34.114	415.46	44.632	9.2085	0.017346
10.000	0.012282	999.65	0.0010003	0.75700	0.75702	2.7219	75.502	75.584	1447.1	-0.023251	1306.0	0.57871	0.074221	0.0094071	106.30	43.032	45.384	160.33	25.706	34.134	416.17	43.272	9.2384	0.017412
11.000	0.013130	999.56	0.0010004	0.83257	0.83260	2.9883	75.446	75.555	1451.0	-0.023170	1269.2	0.58079	0.074075	0.010021	99.787	43.057	45.417	159.89	25.722	34.153	416.88	41.960	9.2685	0.017479
12.000	0.014028	999.45	0.0010005	0.90811	0.90814	3.2537	75.389	75.529	1454.9	-0.023090	1234.1	0.58283	0.073929	0.010670	93.719	43.081	45.450	159.46	25.738	34.173	417.58	40.694	9.2986	0.017545
13.000	0.014981	999.33	0.0010007	0.98363	0.98366	3.5180	75.330	75.505	1458.6	-0.023012	1200.5	0.58483	0.073782	0.011355	88.064	43.106	45.483	159.03	25.754	34.193	418.29	39.473	9.3289	0.017612
14.000	0.015990	999.20	0.0010008	1.0591	1.0592	3.7814	75.271	75.483	1462.2	-0.022935	1168.4	0.58680	0.073634	0.012078	82.793	43.131	45.516	158.60	25.770	34.212	418.99	38.296	9.3593	0.017679
15.000	0.017058	999.06	0.0010009	1.1346	1.1346	4.0438	75.210	75.462	1465.8	-0.022858	1137.6	0.58874	0.073486	0.012841	77.875	43.155	45.549	158.18	25.786	34.233	419.69	37.160	9.3898	0.017747
16.000	0.018188	998.90	0.0010011	1.2100	1.2101	4.3052	75.148	75.443	1469.2	-0.022783	1108.1	0.59064	0.073337	0.013645	73.286	43.180	45.581	157.76	25.802	34.253	420.39	36.065	9.4204	0.017814
17.000	0.019384	998.73	0.0010013	1.2855	1.2855	4.5656	75.085	75.426	1472.6	-0.022709	1079.8	0.59252	0.073188	0.014493	69.001	43.205	45.614	157.34	25.819	34.273	421.09	35.009	9.4512	0.017882
18.000	0.020647	998.55	0.0010014	1.3609	1.3609	4.8251	75.021	75.410	1475.9	-0.022636	1052.7	0.59436	0.073038	0.015385	64.998	43.229	45.647	156.93	25.835	34.294	421.79	33.991	9.4820	0.017950
19.000	0.021983	998.36	0.0010016	1.4363	1.4363	5.0836	74.956	75.396	1479.1	-0.022563	1026.7	0.59617	0.072887	0.016325	61.256	43.254	45.680	156.52	25.851	34.314	422.49	33.009	9.5130	0.018019
20.000	0.023393	998.16	0.0010018	1.5117	1.5117	5.3412	74.890	75.382	1482.2	-0.022492	1001.6	0.59795	0.072736	0.017314	57.757	43.278	45.713	156.12	25.868	34.335	423.18	32.063	9.5441	0.018087
21.000	0.024882	997.95	0.0010021	1.5871	1.5871	5.5979	74.823	75.370	1485.2	-0.022421	977.56	0.59971	0.072584	0.018354	54.483	43.303	45.745	155.72	25.884	34.356	423.87	31.151	9.5752	0.018156
22.000	0.026453	997.73	0.0010023	1.6624	1.6625	5.8537	74.755	75.359	1488.2	-0.022352	954.42	0.60144	0.072432	0.019448	51.418	43.328	45.778	155.32	25.901	34.377	424.56	30.271	9.6065	0.018225
23.000	0.028111	997.50	0.0010025	1.7378	1.7378	6.1086	74.686	75.349	1491.0	-0.022283	932.15	0.60314	0.072279	0.020598	48.548	43.352	45.811	154.93	25.917	34.399	425.25	29.424	9.6379	0.018294
24.000	0.029858	997.25	0.0010028	1.8131	1.8132	6.3626	74.616	75.341	1493.8	-0.022214	910.70	0.60481	0.072126	0.021806	45.858	43.377	45.843	154.54	25.934	34.420	425.94	28.606	9.6694	0.018364
25.000	0.031699	997.00	0.0010030	1.8885	1.8885	6.6157	74.545	75.333	1496.5	-0.022147	890.04	0.60646	0.071972	0.023075	43.337	43.401	45.876	154.15	25.951	34.442	426.63	27.819	9.7009	0.018433
26.000	0.033639	996.74	0.0010033	1.9638	1.9639	6.8679	74.474	75.326	1499.2	-0.022080	870.12	0.60808	0.071818	0.024406	40.973	43.426	45.909	153.77	25.968	34.464	427.31	27.059	9.7326	0.018503
27.000	0.035681	996.47	0.0010035	2.0391	2.0392	7.1193	74.401	75.319	1501.7	-0.022014	850.91	0.60968	0.071663	0.025804	38.754	43.450	45.941	153.39	25.985	34.486	427.99	26.327	9.7643	0.018573
28.000	0.037831	996.19	0.0010038	2.1144	2.1145	7.3698	74.328	75.314	1504.2	-0.021948	832.38	0.61126	0.071507	0.027269	36.672	43.474	45.974	153.01	26.002	34.508	428.67	25.621	9.7962	0.018644
29.000	0.040092	995.90	0.0010041	2.1897	2.1898	7.6194	74.253	75.309	1506.6	-0.021884	814.50	0.61281	0.071351	0.028805	34.716	43.499	46.006	152.64	26.019	34.531	429.35	24.941	9.8281	0.018715
30.000	0.042470	995.61	0.0010044	2.2651	2.2651	7.8683	74.178	75.305	1509.0	-0.021819	797.22	0.61434	0.071194	0.030415	32.878	43.523	46.039	152.26	26.036	34.553	430.03	24.284	9.8602	0.018786
31.000	0.044969	995.30	0.0010047	2.3404	2.3404	8.1162	74.103	75.302	1511.3	-0.021755	780.54	0.61584	0.071037	0.032102	31.151	43.548	46.071	151.90	26.054	34.576	430.71	23.652	9.8923	0.018857
32.000	0.047596	994.99	0.0010050	2.4157	2.4157	8.3634	74.026	75.299	1513.5	-0.021692	764.41	0.61733	0.070879	0.033868	29.526	43.572	46.104	151.53	26.071	34.600	431.38	23.041	9.9245	0.018928
33.000	0.050354	994.66	0.0010054	2.4910	2.4910	8.6098	73.949	75.297	1515.6	-0.021630	748.81	0.61879	0.070721	0.035717	27.998	43.596	46.136	151.17	26.089	34.623	432.05	22.453	9.9567	0.019000
34.000	0.053251	994.33	0.0010057	2.5663	2.5663	8.8553	73.871	75.296	1517.7	-0.021567	733.72	0.62023	0.070562	0.037651	26.560	43.621	46.169	150.81	26.107	34.647	432.72	21.885	9.9891	0.019072
35.000	0.056290	993.99	0.0010060	2.6415	2.6416	9.1001	73.792	75.295	1519.7	-0.021506	719.12	0.62165	0.070402	0.039674	25.205	43.645	46.201	150.46	26.125	34.671	433.39	21.337	10.022	0.019144
36.000	0.059479	993.64	0.0010064	2.7168	2.7169	9.3440	73.713	75.294	1521.6	-0.021444	704.98	0.62305	0.070242	0.041790	23.929	43.669	46.233	150.11	26.143	34.695	434.06	20.809	10.054	0.019217
37.000	0.062823	993.29	0.0010068	2.7921	2.7922	9.5872	73.633	75.295	1523.5	-0.021384	691.29	0.62442	0.070081	0.044001	22.727	43.694	46.266	149.76	26.161	34.720	434.73	20.299	10.087	0.019289
38.000	0.066328	992.92	0.0010071	2.8674	2.8675	9.8295	73.552	75.295	1525.3	-0.021323	678.03	0.62578	0.069920	0.046311	21.593	43.718	46.298	149.41	26.179	34.744	435.39	19.807	10.119	0.019362
39.000	0.070002	992.55	0.0010075	2.9427	2.9428	10.071	73.470	75.296	1527.1	-0.021263	665.18	0.62712	0.069759	0.048723	20.524	43.742	46.330	149.07	26.198	34.770	436.05	19.332	10.152	0.019436
40.000	0.073849	992.18	0.0010079	3.0180	3.0182	10.312	73.388	75.297	1528.7	-0.021203	652.72	0.62844	0.069596	0.051242	19.515	43.766	46.362	148.73	26.217	34.795	436.71	18.873	10.185	0.019509
41.000	0.077878	991.79	0.0010083	3.0933	3.0935	10.552	73.306	75.299	1530.4	-0.021144	640.63	0.62973	0.069434	0.053871	18.563	43.790	46.395	148.39	26.235	34.821	437.37	18.430	10.218	0.019583
42.000	0.082096	991.40	0.0010087	3.1686	3.1688	10.791	73.222	75.301	1531.9	-0.021085	628.91	0.63101	0.069270	0.056614	17.664	43.814	46.427	148.05	26.255	34.847	438.03	18.003	10.251	0.019657
43.000	0.086508	991.00	0.0010091	3.2439	3.2441	11.030	73.139	75.304	1533.4	-0.021027	617.53	0.63227	0.069106	0.059474	16.814	43.839	46.459	147.72	26.274	34.874	438.68	17.590	10.284	0.019732
44.000	0.091124	990.59	0.0010095	3.3192	3.3194	11.268	73.054	75.307	1534.9	-0.020968	606.48	0.63351	0.068942	0.062457	16.011	43.863	46.491	147.39	26.293	34.901	439.33	17.191	10.317	0.019806
45.000	0.095950	990.17	0.0010099	3.3945	3.3947	11.505	72.969	75.310	1536.3	-0.020910	595.75	0.63474	0.068777	0.065565	15.252	43.887	46.523	147.06	26.313	34.928	439.99	16.805	10.350	0.019881
46.000	0.10099	989.75	0.0010104	3.4698	3.4700	11.741	72.884	75.314	1537.6	-0.020853	585.33	0.63594	0.068611	0.068803	14.534	43.911	46.555	146.74	26.333	34.956	440.63	16.432	10.383	0.019957
47.000	0.10627	989.32	0.0010108	3.5452	3.5453	11.977	72.798	75.318	1538.9	-0.020795	575.21	0.63712	0.068445	0.072176	13.855	43.935	46.587	146.42	26.354	34.984	441.28	16.072	10.416	0.020032
48.000	0.11177	988.89	0.0010112	3.6205	3.6207	12.212	72.711	75.322	1540.1	-0.020738	565.37	0.63829	0.068279	0.075688	13.212	43.959	46.619	146.10	26.374	35.013	441.93	15.724	10.450	0.020108
49.000	0.11752	988.44	0.0010117	3.6958	3.6960	12.446	72.624	75.327	1541.3	-0.020681	555.80	0.63944	0.068112	0.079343	12.603	43.983	46.651	145.78	26.395	35.042	442.57	15.387	10.483	0.020184
50.000	0.12352	988.00	0.0010121	3.7711	3.7713	12.679	72.537	75.332	1542.4	-0.020624	546.50	0.64057	0.067944	0.083147	12.027	44.006	46.683	145.47	26.416	35.071	443.21	15.061	10.516	0.020261
51.000	0.12978	987.54	0.0010126	3.8465	3.8467	12.912	72.449	75.337	1543.5	-0.020568	537.45	0.64169	0.067776	0.087103	11.481	44.030	46.715	145.16	26.437	35.101	443.85	14.745	10.550	0.020338
52.000	0.13631	987.08	0.0010131	3.9218	3.9220	13.144	72.361	75.342	1544.5	-0.020512	528.64	0.64279	0.067607	0.091217	10.963	44.054	46.746	144.85	26.459	35.132	444.48	14.440	10.583	0.020415
53.000	0.14312	986.61	0.0010136	3.9971	3.9974	13.375	72.272	75.348	1545.5	-0.020455	520.07	0.64387	0.067438	0.095494	10.472	44.078	46.778	144.54	26.481	35.163	445.12	14.145	10.617	0.020492
54.000	0.15022	986.14	0.0010141	4.0725	4.0728	13.606	72.183	75.354	1546.4	-0.020399	511.73	0.64493	0.067268	0.099938	10.006	44.102	46.810	144.24	26.503	35.194	445.75	13.859	10.651	0.020570
55.000	0.15762	985.66	0.0010146	4.1478	4.1481	13.836	72.093	75.361	1547.2	-0.020344	503.61	0.64598	0.067098	0.10456	9.5643	44.126	46.841	143.94	26.526	35.227	446.38	13.582	10.684	0.020648
56.000	0.16533	985.17	0.0010151	4.2232	4.2235	14.065	72.003	75.367	1548.0	-0.020288	495.69	0.64701	0.066927	0.10935	9.1448	44.149	46.873	143.64	26.548	35.259	447.01	13.314	10.718	0.020726
57.000	0.17336	984.68	0.0010156	4.2986	4.2989	14.294	71.913	75.374	1548.8	-0.020232	487.98	0.64802	0.066755	0.11433	8.7466	44.173	46.905	143.34	26.572	35.292	447.64	13.054	10.752	0.020805
58.000	0.18171	984.18	0.0010161	4.3739	4.3743	14.522	71.823	75.381	1549.5	-0.020177	480.47	0.64901	0.066584	0.11950	8.3683	44.197	46.936	143.05	26.595	35.326	448.26	12.802	10.786	0.020884
59.000	0.19041	983.67	0.0010166	4.4493	4.4497	14.749	71.732	75.389	1550.2	-0.020122	473.15	0.64999	0.066411	0.12486	8.0089	44.220	46.967	142.76	26.619	35.361	448.88	12.558	10.820	0.020963
60.000	0.19946	983.16	0.0010171	4.5247	4.5251	14.976	71.641	75.396	1550.8	-0.020066	466.02	0.65096	0.066238	0.13043	7.6672	44.244	46.999	142.47	26.644	35.396	449.50	12.321	10.854	0.021043
61.000	0.20888	982.64	0.0010177	4.6001	4.6005	15.202	71.549	75.404	1551.4	-0.020011	459.06	0.65191	0.066065	0.13620	7.3424	44.267	47.030	142.18	26.668	35.431	450.12	12.091	10.887	0.021123
62.000	0.21867	982.12	0.0010182	4.6755	4.6759	15.427	71.457	75.412	1551.9	-0.019956	452.27	0.65284	0.065891	0.14218	7.0335	44.291	47.061	141.89	26.693	35.467	450.73	11.868	10.921	0.021204
63.000	0.22885	981.59	0.0010188	4.7509	4.7514	15.652	71.365	75.421	1552.4	-0.019901	445.65	0.65375	0.065716	0.14838	6.7396	44.314	47.093	141.61	26.719	35.504	451.35	11.652	10.956	0.021284
64.000	0.23943	981.06	0.0010193	4.8264	4.8268	15.876	71.273	75.430	1552.9	-0.019846	439.19	0.65465	0.065541	0.15480	6.4598	44.338	47.124	141.33	26.745	35.542	451.96	11.442	10.990	0.021366
65.000	0.25042	980.52	0.0010199	4.9018	4.9022	16.099	71.180	75.439	1553.3	-0.019791	432.88	0.65554	0.065366	0.16146	6.1935	44.361	47.155	141.05	26.771	35.580	452.57	11.239	11.024	0.021447
66.000	0.26183	979.97	0.0010204	4.9772	4.9777	16.322	71.087	75.448	1553.6	-0.019736	426.73	0.65640	0.065190	0.16835	5.9399	44.384	47.186	140.78	26.798	35.619	453.17	11.041	11.058	0.021529
67.000	0.27368	979.42	0.0010210	5.0527	5.0532	16.544	70.994	75.458	1553.9	-0.019682	420.72	0.65726	0.065013	0.17549	5.6984	44.408	47.217	140.50	26.825	35.659	453.77	10.848	11.092	0.021611
68.000	0.28599	978.86	0.0010216	5.1281	5.1287	16.766	70.901	75.467	1554.2	-0.019627	414.86	0.65809	0.064836	0.18288	5.4682	44.431	47.248	140.23	26.853	35.699	454.37	10.662	11.126	0.021694
69.000	0.29876	978.30	0.0010222	5.2036	5.2041	16.987	70.808	75.478	1554.4	-0.019572	409.13	0.65891	0.064659	0.19052	5.2488	44.454	47.279	139.96	26.881	35.740	454.97	10.480	11.160	0.021777
70.000	0.31201	977.73	0.0010228	5.2791	5.2796	17.207	70.714	75.488	1554.6	-0.019517	403.53	0.65972	0.064481	0.19843	5.0395	44.477	47.310	139.69	26.909	35.782	455.57	10.304	11.195	0.021860
71.000	0.32575	977.16	0.0010234	5.3546	5.3552	17.427	70.621	75.499	1554.8	-0.019462	398.06	0.66051	0.064302	0.20661	4.8400	44.500	47.341	139.42	26.938	35.825	456.16	10.132	11.229	0.021944
72.000	0.34000	976.58	0.0010240	5.4301	5.4307	17.646	70.527	75.510	1554.9	-0.019407	392.72	0.66129	0.064123	0.21507	4.6496	44.523	47.371	139.16	26.968	35.868	456.75	9.9654	11.263	0.022028
73.000	0.35478	976.00	0.0010246	5.5056	5.5062	17.864	70.433	75.521	1554.9	-0.019352	387.50	0.66205	0.063944	0.22382	4.4680	44.546	47.402	138.90	26.998	35.913	457.34	9.8032	11.298	0.022113
74.000	0.37009	975.41	0.0010252	5.5811	5.5818	18.082	70.339	75.532	1555.0	-0.019297	382.39	0.66280	0.063764	0.23285	4.2945	44.569	47.433	138.64	27.028	35.958	457.93	9.6452	11.332	0.022198
75.000	0.38595	974.81	0.0010258	5.6566	5.6573	18.299	70.244	75.544	1554.9	-0.019242	377.40	0.66353	0.063583	0.24219	4.1289	44.592	47.463	138.38	27.059	36.004	458.51	9.4915	11.367	0.022283
76.000	0.40239	974.22	0.0010265	5.7322	5.7329	18.516	70.150	75.556	1554.9	-0.019187	372.52	0.66424	0.063402	0.25184	3.9708	44.615	47.494	138.12	27.091	36.050	459.09	9.3419	11.401	0.022369
77.000	0.41941	973.61	0.0010271	5.8077	5.8085	18.732	70.056	75.569	1554.8	-0.019132	367.74	0.66495	0.063220	0.26180	3.8197	44.638	47.524	137.87	27.123	36.098	459.67	9.1962	11.435	0.022455
78.000	0.43703	973.00	0.0010277	5.8833	5.8841	18.948	69.961	75.581	1554.7	-0.019076	363.07	0.66563	0.063038	0.27209	3.6752	44.661	47.554	137.62	27.155	36.147	460.25	9.0542	11.470	0.022542
79.000	0.45527	972.39	0.0010284	5.9589	5.9597	19.162	69.867	75.594	1554.5	-0.019021	358.51	0.66631	0.062856	0.28271	3.5372	44.683	47.584	137.36	27.188	36.196	460.82	8.9160	11.504	0.022629
80.000	0.47414	971.77	0.0010291	6.0345	6.0353	19.377	69.772	75.608	1554.3	-0.018965	354.04	0.66697	0.062673	0.29367	3.4052	44.706	47.615	137.12	27.222	36.246	461.39	8.7812	11.539	0.022717
81.000	0.49367	971.14	0.0010297	6.1101	6.1110	19.591	69.677	75.621	1554.1	-0.018910	349.66	0.66761	0.062489	0.30498	3.2789	44.729	47.645	136.87	27.256	36.298	461.96	8.6499	11.573	0.022805
82.000	0.51387	970.51	0.0010304	6.1857	6.1866	19.804	69.583	75.635	1553.8	-0.018854	345.38	0.66824	0.062305	0.31665	3.1581	44.751	47.675	136.62	27.291	36.350	462.52	8.5219	11.608	0.022893
83.000	0.53476	969.88	0.0010311	6.2613	6.2623	20.017	69.488	75.650	1553.5	-0.018798	341.19	0.66885	0.062121	0.32868	3.0425	44.774	47.705	136.38	27.327	36.403	463.08	8.3970	11.643	0.022982
84.000	0.55635	969.24	0.0010317	6.3370	6.3380	20.229	69.393	75.664	1553.2	-0.018742	337.08	0.66946	0.061936	0.34109	2.9318	44.796	47.735	136.14	27.363	36.457	463.64	8.2752	11.677	0.023072
85.000	0.57867	968.59	0.0010324	6.4126	6.4137	20.440	69.299	75.679	1552.8	-0.018686	333.06	0.67004	0.061750	0.35388	2.8258	44.818	47.764	135.90	27.399	36.512	464.20	8.1564	11.712	0.023162
86.000	0.60173	967.94	0.0010331	6.4883	6.4894	20.651	69.204	75.695	1552.4	-0.018629	329.13	0.67062	0.061565	0.36706	2.7244	44.841	47.794	135.66	27.437	36.569	464.75	8.0404	11.746	0.023252
87.000	0.62556	967.29	0.0010338	6.5640	6.5652	20.862	69.109	75.710	1551.9	-0.018573	325.27	0.67118	0.061378	0.38064	2.6271	44.863	47.824	135.42	27.474	36.626	465.30	7.9272	11.781	0.023343
88.000	0.65017	966.63	0.0010345	6.6397	6.6409	21.072	69.015	75.726	1551.4	-0.018516	321.49	0.67172	0.061191	0.39464	2.5340	44.885	47.853	135.19	27.513	36.684	465.85	7.8167	11.816	0.023434
89.000	0.67558	965.96	0.0010352	6.7154	6.7167	21.281	68.920	75.742	1550.9	-0.018459	317.79	0.67225	0.061004	0.40905	2.4447	44.907	47.883	134.95	27.552	36.743	466.40	7.7088	11.850	0.023526
90.000	0.70182	965.30	0.0010360	6.7912	6.7925	21.490	68.826	75.759	1550.4	-0.018402	314.17	0.67277	0.060816	0.42390	2.3591	44.929	47.912	134.72	27.592	36.804	466.94	7.6034	11.885	0.023618
91.000	0.72890	964.62	0.0010367	6.8669	6.8683	21.698	68.731	75.776	1549.8	-0.018345	310.61	0.67328	0.060628	0.43918	2.2770	44.952	47.941	134.49	27.632	36.865	467.48	7.5004	11.920	0.023711
92.000	0.75684	963.94	0.0010374	6.9427	6.9441	21.906	68.637	75.794	1549.2	-0.018287	307.13	0.67377	0.060439	0.45491	2.1982	44.973	47.971	134.26	27.674	36.928	468.01	7.3998	11.954	0.023804
93.000	0.78568	963.26	0.0010381	7.0185	7.0199	22.113	68.542	75.811	1548.6	-0.018230	303.71	0.67424	0.060250	0.47111	2.1227	44.995	48.000	134.03	27.716	36.992	468.55	7.3015	11.989	0.023898
94.000	0.81541	962.57	0.0010389	7.0943	7.0958	22.320	68.448	75.830	1547.9	-0.018172	300.36	0.67471	0.060060	0.48777	2.0502	45.017	48.029	133.81	27.758	37.057	469.08	7.2053	12.024	0.023993
95.000	0.84608	961.88	0.0010396	7.1701	7.1717	22.526	68.354	75.848	1547.2	-0.018114	297.08	0.67516	0.059870	0.50491	1.9806	45.039	48.058	133.58	27.801	37.123	469.61	7.1113	12.059	0.024088
96.000	0.87771	961.18	0.0010404	7.2459	7.2476	22.732	68.260	75.867	1546.4	-0.018055	293.86	0.67559	0.059679	0.52254	1.9137	45.061	48.087	133.36	27.845	37.191	470.13	7.0193	12.093	0.024183
97.000	0.91030	960.48	0.0010411	7.3218	7.3235	22.937	68.166	75.886	1545.7	-0.017997	290.70	0.67602	0.059488	0.54067	1.8496	45.082	48.115	133.14	27.890	37.259	470.65	6.9293	12.128	0.024279
98.000	0.94390	959.78	0.0010419	7.3977	7.3994	23.142	68.072	75.906	1544.9	-0.017938	287.60	0.67643	0.059296	0.55931	1.7879	45.104	48.144	132.92	27.936	37.329	471.17	6.8413	12.163	0.024375
99.000	0.97852	959.06	0.0010427	7.4736	7.4754	23.346	67.978	75.926	1544.0	-0.017879	284.56	0.67683	0.059104	0.57847	1.7287	45.125	48.173	132.70	27.982	37.400	471.68	6.7551	12.197	0.024473
